date	time	group	subject	blockcode	blocknum	trialcode	trialnum	response	correct	latency	stimulusnumber1	stimulusitem1	expressions.d	expressions.latdiff	expressions.percentcorrect
101418	15:44:42	1	1	practice_compatibletest	1	targetAleft	2	18	1	1757	1	赵晓倩		0	0
101418	15:44:42	1	1	practice_compatibletest	1	targetAleft	3	18	1	2845	4	朱燕		0	0
101418	15:44:42	1	1	practice_compatibletest	1	attributeB	4	23	1	1084	2	汽车		0	0
101418	15:44:42	1	1	practice_compatibletest	1	attributeB	5	23	1	1102	6	电脑		0	0
101418	15:44:42	1	1	practice_compatibletest	1	attributeB	6	23	1	689	3	城市		0	0
101418	15:44:42	1	1	practice_compatibletest	1	attributeB	7	23	1	533	5	街道		0	0
101418	15:44:42	1	1	practice_compatibletest	1	attributeA	8	18	0	1876	3	鸟类		0	0
101418	15:44:42	1	1	practice_compatibletest	1	attributeB	9	23	1	929	4	工厂		0	0
101418	15:44:42	1	1	practice_compatibletest	1	targetAleft	10	18	1	665	3	胡文娟		0	0
101418	15:44:42	1	1	practice_compatibletest	1	targetAleft	11	18	1	654	2	张莹莹		0	0
101418	15:44:42	1	1	practice_compatibletest	1	targetAleft	12	18	1	835	5	徐芳		0	0
101418	15:44:42	1	1	practice_compatibletest	1	attributeA	13	18	1	1412	2	植物		0	0
101418	15:44:42	1	1	practice_compatibletest	1	attributeB	14	23	1	1165	1	建筑物		0	0
101418	15:44:42	1	1	practice_compatibletest	1	attributeA	15	18	1	865	6	山峰		0	0
101418	15:44:42	1	1	practice_compatibletest	1	attributeA	16	18	1	790	4	树木		0	0
101418	15:44:42	1	1	practice_compatibletest	1	attributeB	17	23	1	737	3	城市		0	0
101418	15:44:42	1	1	practice_compatibletest	1	targetAleft	18	18	1	566	6	严莉		0	0
101418	15:44:42	1	1	practice_compatibletest	1	attributeA	19	18	1	1325	1	动物		0	0
101418	15:44:42	1	1	practice_compatibletest	1	attributeB	20	23	1	571	1	建筑物		0	0
101418	15:44:42	1	1	practice_compatibletest	1	attributeB	21	23	0	1627	2	汽车		0	0
101418	15:44:42	1	1	practice_compatibletest	1	targetAleft	22	18	1	1026	6	严莉		0	0
101418	15:44:42	1	1	practice_compatibletest	1	attributeB	23	23	1	1369	6	电脑		0	0
101418	15:44:42	1	1	practice_compatibletest	1	attributeA	24	18	0	1844	5	海洋		0	0
101418	15:44:42	1	1	practice_compatibletest	1	attributeA	25	18	1	672	4	树木		0	0
101418	15:44:42	1	1	compatibletest	3	targetAleft	1	18	1	817	4	朱燕		-817	100
101418	15:44:42	1	1	compatibletest	3	attributeB	2	23	1	991	5	街道	-1.3887229881980136525	-904	100
101418	15:44:42	1	1	compatibletest	3	targetAleft	3	18	1	580	1	赵晓倩	-1.5038501998136539761	-796	100
101418	15:44:42	1	1	compatibletest	3	attributeA	4	18	1	1164	2	植物	-1.5574681573228306153	-888	100
101418	15:44:42	1	1	compatibletest	3	targetAleft	5	18	1	649	5	徐芳	-1.5915227776628160239	-840.2000000000000454747	100
101418	15:44:42	1	1	compatibletest	3	targetAleft	6	18	1	535	2	张莹莹	-1.5821003865004843458	-789.3333333333333712289	100
101418	15:44:42	1	1	compatibletest	3	attributeA	7	18	1	692	6	山峰	-1.6225419059831089896	-775.4285714285714448124	100
101418	15:44:42	1	1	compatibletest	3	attributeB	8	23	1	530	4	工厂	-1.6196010234028792585	-744.75	100
101418	15:44:42	1	1	compatibletest	3	attributeB	9	23	1	737	4	工厂	-1.6551449240744799951	-743.8888888888889141526	100
101418	15:44:42	1	1	compatibletest	3	attributeB	10	23	1	798	6	电脑	-1.686222595806633473	-749.2999999999999545253	100
101418	15:44:42	1	1	compatibletest	3	attributeA	11	18	1	684	3	鸟类	-1.7067313578582923306	-743.3636363636363739715	100
101418	15:44:42	1	1	compatibletest	3	attributeB	12	23	1	660	5	街道	-1.722449006216961287	-736.4166666666666287711	100
101418	15:44:42	1	1	compatibletest	3	targetAleft	13	18	1	612	3	胡文娟	-1.7313010527028798169	-726.8461538461538111733	100
101418	15:44:42	1	1	compatibletest	3	attributeA	14	18	1	705	5	海洋	-1.7473971760435715872	-725.2857142857143344372	100
101418	15:44:42	1	1	compatibletest	3	targetAleft	15	18	1	1238	1	赵晓倩	-1.6961562467192821124	-759.4666666666666969832	100
101418	15:44:42	1	1	compatibletest	3	attributeA	16	18	1	796	1	动物	-1.7130143724242585801	-761.75	100
101418	15:44:42	1	1	compatibletest	3	attributeB	17	23	1	481	3	城市	-1.6986493777352142942	-745.2352941176470721985	100
101418	15:44:42	1	1	compatibletest	3	attributeA	18	18	1	863	4	树木	-1.7126361646372989522	-751.7777777777778283053	100
101418	15:44:42	1	1	compatibletest	3	targetAleft	19	18	1	509	2	张莹莹	-1.7048044879179036215	-739	100
101418	15:44:42	1	1	compatibletest	3	attributeB	20	23	1	889	1	建筑物	-1.7159398885698196047	-746.5	100
101418	15:44:42	1	1	compatibletest	3	attributeB	21	23	1	1350	2	汽车	-1.6696536719289536421	-775.2380952380951839586	100
101418	15:44:42	1	1	compatibletest	3	attributeA	22	18	1	889	1	动物	-1.6824151808842970901	-780.4090909090908780854	100
101418	15:44:42	1	1	compatibletest	3	targetAleft	23	18	1	518	5	徐芳	-1.6753755253977429263	-769	100
101418	15:44:42	1	1	compatibletest	3	attributeB	24	23	1	620	2	汽车	-1.6790243983601835787	-762.7916666666666287711	100
101418	15:44:42	1	1	compatibletest	3	targetAleft	25	18	1	543	3	胡文娟	-1.6763205945162324983	-754	100
101418	15:44:42	1	1	compatibletest	3	attributeB	26	23	1	710	5	街道	-1.6850805531926851266	-752.3076923076922639666	100
101418	15:44:42	1	1	compatibletest	3	attributeB	27	23	1	474	6	电脑	-1.6761560009934883819	-742	100
101418	15:44:42	1	1	compatibletest	3	targetAleft	28	18	1	582	4	朱燕	-1.6780233209633605984	-736.2857142857143344372	100
101418	15:44:42	1	1	compatibletest	3	attributeB	29	23	1	597	4	工厂	-1.6810713090159954408	-731.4827586206896512522	100
101418	15:44:42	1	1	compatibletest	3	attributeA	30	18	1	554	5	海洋	-1.6812756389499803333	-725.5666666666667197205	100
101418	15:44:42	1	1	compatibletest	3	attributeA	31	18	1	614	6	山峰	-1.6854960096730700059	-721.9677419354839003063	100
101418	15:44:42	1	1	compatibletest	3	attributeB	32	23	1	538	3	城市	-1.6849397291905852114	-716.21875	100
101418	15:44:42	1	1	compatibletest	3	attributeA	33	18	1	561	2	植物	-1.6862388940379184898	-711.5151515151515013713	100
101418	15:44:42	1	1	compatibletest	3	targetAleft	34	18	1	536	6	严莉	-1.6860714236691685119	-706.3529411764706082977	100
101418	15:44:42	1	1	compatibletest	3	attributeA	35	18	1	958	3	鸟类	-1.6891289539668028485	-713.5428571428570876378	100
101418	15:44:42	1	1	compatibletest	3	attributeB	36	23	1	533	1	建筑物	-1.6886042969823895632	-708.5277777777778283053	100
101418	15:44:42	1	1	compatibletest	3	targetAleft	37	18	1	491	2	张莹莹	-1.6854318669526275887	-702.648648648648645576	100
101418	15:44:42	1	1	compatibletest	3	attributeB	38	23	0	1369	1	建筑物	-1.6499109084781475865	-720.1842105263158373418	97.3684210526315752077
101418	15:44:42	1	1	compatibletest	3	attributeA	39	18	1	725	6	山峰	-1.6569713214846253369	-720.3076923076922639666	97.4358974358974307961
101418	15:44:42	1	1	compatibletest	3	targetAleft	40	18	1	523	1	赵晓倩	-1.6560069182347012529	-715.375	97.5
101418	15:44:42	1	1	compatibletest	3	attributeB	41	23	1	733	6	电脑	-1.6628111053641319028	-715.8048780487804378936	97.5609756097560989474
101418	15:44:42	1	1	compatibletest	3	attributeB	42	23	0	1468	5	街道	-1.6243270833568193012	-733.7142857142856655628	95.2380952380952265912
101418	15:44:42	1	1	compatibletest	3	attributeA	43	18	1	533	5	海洋	-1.6238293937177998849	-729.0465116279069661687	95.3488372093023315301
101418	15:44:42	1	1	compatibletest	3	attributeA	44	18	1	779	3	鸟类	-1.6308832507417105884	-730.1818181818181301423	95.4545454545454532536
101418	15:44:42	1	1	compatibletest	3	attributeB	45	23	1	561	4	工厂	-1.6318362162161910156	-726.4222222222222171695	95.5555555555555571345
101418	15:44:42	1	1	compatibletest	3	targetAleft	46	18	1	539	5	徐芳	-1.6318370681069835904	-722.3478260869565019675	95.6521739130434838216
101418	15:44:42	1	1	compatibletest	3	targetAleft	47	18	1	452	3	胡文娟	-1.6270971214649994074	-716.5957446808511122072	95.7446808510638334155
101418	15:44:42	1	1	compatibletest	3	attributeA	48	18	1	685	1	动物	-1.6324144711403310026	-715.9375	95.8333333333333428072
101418	15:44:42	1	1	compatibletest	3	attributeA	49	18	1	437	2	植物	-1.627158424827372496	-710.244897959183617786	95.9183673469387656496
101418	15:44:42	1	1	compatibletest	3	attributeB	50	23	1	419	3	城市	-1.6211488081032445763	-704.4199999999999590727	96
101418	15:44:42	1	1	compatibletest	3	attributeB	51	23	1	513	2	汽车	-1.6207791435282079551	-700.6666666666666287711	96.0784313725490193292
101418	15:44:42	1	1	compatibletest	3	attributeB	52	23	1	525	3	城市	-1.6210878114308893139	-697.2884615384615472067	96.153846153846160405
101418	15:44:42	1	1	compatibletest	3	attributeB	53	23	1	511	2	汽车	-1.6208709511915819768	-693.7735849056604138241	96.2264150943396288085
101418	15:44:42	1	1	compatibletest	3	attributeA	54	18	0	1212	4	树木	-1.6119133431549192981	-703.3703703703703240535	94.4444444444444428655
101418	15:44:42	1	1	compatibletest	3	attributeB	55	23	1	598	5	街道	-1.6148291032414592294	-701.4545454545454958861	94.5454545454545467464
101418	15:44:42	1	1	compatibletest	3	targetAleft	56	18	1	517	6	严莉	-1.614795350097182336	-698.1607142857143344372	94.6428571428571387969
101418	15:44:42	1	1	compatibletest	3	attributeB	57	23	0	942	4	工厂	-1.6186148940328222157	-702.4385964912280542194	92.9824561403508766944
101418	15:44:42	1	1	compatibletest	3	attributeB	58	23	0	1416	6	电脑	-1.5965806628419112467	-714.7413793103448824695	91.379310344827587187
101418	15:44:42	1	1	compatibletest	3	attributeA	59	18	1	726	2	植物	-1.6017367046197745761	-714.9322033898305335242	91.5254237288135641393
101418	15:44:42	1	1	compatibletest	3	attributeB	60	23	0	1236	1	建筑物	-1.5954137763174294218	-723.6166666666666742458	90
101418	15:44:42	1	1	compatibletest	3	attributeA	61	18	1	562	5	海洋	-1.5965391259372221366	-720.9672131147541449536	90.1639344262295026056
101418	15:44:42	1	1	compatibletest	3	attributeB	62	23	1	692	1	建筑物	-1.6008924006032418941	-720.5	90.3225806451612811543
101418	15:44:42	1	1	compatibletest	3	targetAleft	63	18	1	543	4	朱燕	-1.6013784586437409541	-717.682539682539641035	90.4761904761904816041
101418	15:44:42	1	1	compatibletest	3	targetAleft	64	18	1	537	2	张莹莹	-1.6017166852612039207	-714.859375	90.625
101418	15:44:42	1	1	compatibletest	3	attributeA	65	18	0	1300	6	山峰	-1.592420868073103124	-723.861538461538430056	89.2307692307692406075
101418	15:44:42	1	1	compatibletest	3	targetAleft	66	18	1	511	3	胡文娟	-1.5917314031584441913	-720.6363636363636260285	89.393939393939390925
101418	15:44:42	1	1	compatibletest	3	attributeB	67	23	1	600	4	工厂	-1.59390591339064569	-718.8358208955223744852	89.5522388059701484053
101418	15:44:42	1	1	compatibletest	3	attributeB	68	23	1	582	2	汽车	-1.5955956300448532748	-716.8235294117647526946	89.7058823529411739628
101418	15:44:42	1	1	compatibletest	3	targetAleft	69	18	1	541	5	徐芳	-1.5960880390693192865	-714.275362318840620901	89.8550724637681099694
101418	15:44:42	1	1	compatibletest	3	attributeA	70	18	1	1228	4	树木	-1.5912211414196877346	-721.6142857142857565123	90
101418	15:44:42	1	1	compatibletest	3	targetAleft	71	18	1	540	4	朱燕	-1.5915824523548480762	-719.0563380281689660478	90.1408450704225430172
101418	15:44:42	1	1	compatibletest	3	attributeB	72	23	1	838	5	街道	-1.5962354652999726223	-720.7083333333333712289	90.2777777777777856727
