date	time	group	subject	blockcode	blocknum	trialcode	trialnum	response	correct	latency	stimulusnumber1	stimulusitem1	expressions.d	expressions.latdiff	expressions.percentcorrect
101418	14:16:31	1	1	practice_compatibletest	1	attributeA	2	18	1	2397	4	树木		0	0
101418	14:16:31	1	1	practice_compatibletest	1	attributeA	3	18	1	2153	6	山峰		0	0
101418	14:16:31	1	1	practice_compatibletest	1	targetAleft	4	18	1	1679	5	徐芳		0	0
101418	14:16:31	1	1	practice_compatibletest	1	targetAleft	5	18	1	790	6	严莉		0	0
101418	14:16:31	1	1	practice_compatibletest	1	attributeA	6	18	1	1641	2	植物		0	0
101418	14:16:31	1	1	practice_compatibletest	1	attributeB	7	23	1	1420	5	街道		0	0
101418	14:16:31	1	1	practice_compatibletest	1	attributeA	8	18	1	2841	1	动物		0	0
101418	14:16:31	1	1	practice_compatibletest	1	targetAleft	9	18	0	13876	3	胡文娟		0	0
101418	14:16:31	1	1	practice_compatibletest	1	attributeB	10	23	1	6909	4	工厂		0	0
101418	14:16:31	1	1	practice_compatibletest	1	attributeB	11	23	1	2363	6	电脑		0	0
101418	14:16:31	1	1	practice_compatibletest	1	attributeB	12	23	1	8113	2	汽车		0	0
101418	14:16:31	1	1	practice_compatibletest	1	attributeB	13	23	0	4247	1	建筑物		0	0
101418	14:16:31	1	1	practice_compatibletest	1	attributeB	14	23	1	2698	3	城市		0	0
101418	14:16:31	1	1	practice_compatibletest	1	attributeA	15	18	1	1163	3	鸟类		0	0
101418	14:16:31	1	1	practice_compatibletest	1	targetAleft	16	18	1	744	2	张莹莹		0	0
101418	14:16:31	1	1	practice_compatibletest	1	attributeA	17	18	1	2703	5	海洋		0	0
101418	14:16:31	1	1	practice_compatibletest	1	targetAleft	18	18	1	1871	4	朱燕		0	0
101418	14:16:31	1	1	practice_compatibletest	1	targetAleft	19	18	1	11158	1	赵晓倩		0	0
101418	14:16:31	1	1	practice_compatibletest	1	targetAleft	20	18	1	2874	6	严莉		0	0
101418	14:16:31	1	1	practice_compatibletest	1	attributeB	21	23	0	4394	4	工厂		0	0
101418	14:16:31	1	1	practice_compatibletest	1	attributeA	22	18	0	1828	4	树木		0	0
101418	14:16:31	1	1	practice_compatibletest	1	attributeB	23	23	0	6080	2	汽车		0	0
101418	14:16:31	1	1	practice_compatibletest	1	attributeB	24	23	1	3474	6	电脑		0	0
101418	14:16:31	1	1	practice_compatibletest	1	attributeB	25	23	1	20018	5	街道		0	0
101418	14:16:31	1	1	compatibletest	3	attributeA	1	18	1	1243	5	海洋		-1243	100
101418	14:16:31	1	1	compatibletest	3	attributeA	2	18	1	1743	6	山峰	-1.3410107214602724479	-1493	100
101418	14:16:31	1	1	compatibletest	3	attributeB	3	23	1	966	1	建筑物	-1.4674778007703406235	-1317.3333333333332575421	100
101418	14:16:31	1	1	compatibletest	3	attributeA	4	18	0	3304	2	植物	-1.2266390791765713342	-1814	75
101418	14:16:31	1	1	compatibletest	3	targetAleft	5	18	1	1414	4	朱燕	-1.2963484177865327585	-1734	80
101418	14:16:31	1	1	compatibletest	3	targetAleft	6	18	1	831	3	胡文娟	-1.2646568063157193063	-1583.5	83.3333333333333428072
101418	14:16:31	1	1	compatibletest	3	targetAleft	7	18	1	731	1	赵晓倩	-1.2324582894179549886	-1461.7142857142857792496	85.7142857142857081953
101418	14:16:31	1	1	compatibletest	3	attributeA	8	18	0	1013	1	动物	-1.2516296422035648739	-1405.625	75
101418	14:16:31	1	1	compatibletest	3	attributeA	9	18	1	2813	3	鸟类	-1.2686625765461772009	-1562	77.7777777777777856727
101418	14:16:31	1	1	compatibletest	3	targetAleft	10	18	1	684	2	张莹莹	-1.2378725513417903059	-1474.2000000000000454747	80
101418	14:16:31	1	1	compatibletest	3	attributeA	11	18	1	4285	5	海洋	-1.147010637811030076	-1729.7272727272727479431	81.8181818181818272251
101418	14:16:31	1	1	compatibletest	3	attributeB	12	23	0	1425	3	城市	-1.1707150783644812986	-1704.3333333333332575421	75
101418	14:16:31	1	1	compatibletest	3	attributeB	13	23	1	1612	1	建筑物	-1.2009092072450895383	-1697.2307692307692832401	76.9230769230769340083
101418	14:16:31	1	1	compatibletest	3	targetAleft	14	18	1	683	5	徐芳	-1.1763262581460305345	-1624.7857142857142207504	78.5714285714285693984
101418	14:16:31	1	1	compatibletest	3	attributeB	15	23	0	2229	2	汽车	-1.21485302150501151	-1665.0666666666666060337	73.3333333333333285964
101418	14:16:31	1	1	compatibletest	3	attributeB	16	23	1	1425	4	工厂	-1.2333730503817377233	-1650.0625	75
101418	14:16:31	1	1	compatibletest	3	attributeA	17	18	0	1874	6	山峰	-1.2626922378491844956	-1663.2352941176470721985	70.5882352941176520744
101418	14:16:31	1	1	compatibletest	3	attributeA	18	18	1	605	3	鸟类	-1.2360056205556018138	-1604.4444444444443433895	72.2222222222222143273
101418	14:16:31	1	1	compatibletest	3	attributeA	19	18	1	496	4	树木	-1.2060791481011126081	-1546.1052631578947966773	73.6842105263157804984
101418	14:16:31	1	1	compatibletest	3	attributeA	20	18	1	634	2	植物	-1.1887291596286697626	-1500.5	75
101418	14:16:31	1	1	compatibletest	3	targetAleft	21	18	1	596	1	赵晓倩	-1.1716467100083933772	-1457.4285714285713311256	76.1904761904761897995
101418	14:16:31	1	1	compatibletest	3	attributeB	22	23	1	3852	3	城市	-1.1528685718297444485	-1566.2727272727272520569	77.2727272727272662678
101418	14:16:31	1	1	compatibletest	3	targetAleft	23	18	1	739	3	胡文娟	-1.1436804261959701012	-1530.304347826086996065	78.2608695652173906865
101418	14:16:31	1	1	compatibletest	3	targetAleft	24	18	1	621	2	张莹莹	-1.1305629591013020008	-1492.4166666666667424579	79.1666666666666571928
101418	14:16:31	1	1	compatibletest	3	attributeB	25	23	1	1126	6	电脑	-1.1376814798186127842	-1477.7599999999999909051	80
101418	14:16:31	1	1	compatibletest	3	attributeB	26	23	1	675	5	街道	-1.1288442613028852879	-1446.8846153846154720668	80.7692307692307736033
101418	14:16:31	1	1	compatibletest	3	attributeA	27	18	1	684	1	动物	-1.1214077382185871912	-1418.6296296296295622597	81.4814814814814809552
101418	14:16:31	1	1	compatibletest	3	targetAleft	28	18	1	583	4	朱燕	-1.110881240023645633	-1388.7857142857142207504	82.1428571428571387969
101418	14:16:31	1	1	compatibletest	3	targetAleft	29	18	1	485	5	徐芳	-1.0974560806471791441	-1357.6206896551723275479	82.7586206896551743739
101418	14:16:31	1	1	compatibletest	3	attributeA	30	18	0	1079	5	海洋	-1.1047724036460346841	-1348.3333333333332575421	80
101418	14:16:31	1	1	compatibletest	3	attributeB	31	23	0	1890	4	工厂	-1.1239230579771384289	-1365.806451612903174464	77.4193548387096797114
101418	14:16:31	1	1	compatibletest	3	targetAleft	32	18	1	724	6	严莉	-1.1202964713775405148	-1345.75	78.125
101418	14:16:31	1	1	compatibletest	3	targetAleft	33	18	1	682	4	朱燕	-1.1157774120683308094	-1325.6363636363637397153	78.7878787878787818499
101418	14:16:31	1	1	compatibletest	3	targetAleft	34	18	1	870	2	张莹莹	-1.1174209016179255105	-1312.2352941176470721985	79.4117647058823479256
101418	14:16:31	1	1	compatibletest	3	attributeB	35	23	1	790	6	电脑	-1.1169835051111229873	-1297.3142857142856883002	80
101418	14:16:31	1	1	compatibletest	3	targetAleft	36	18	1	760	1	赵晓倩	-1.1159429025870257757	-1282.3888888888889141526	80.5555555555555571345
101418	14:16:31	1	1	compatibletest	3	attributeB	37	23	0	827	2	汽车	-1.1170223706675226349	-1270.0810810810810380644	78.3783783783783718491
101418	14:16:31	1	1	compatibletest	3	attributeB	38	23	1	922	1	建筑物	-1.1206450855003433631	-1260.9210526315789593355	78.9473684210526300831
101418	14:16:31	1	1	compatibletest	3	targetAleft	39	18	1	509	3	胡文娟	-1.1126609690181243906	-1241.6410256410256351955	79.4871794871794890014
101418	14:16:31	1	1	compatibletest	3	attributeA	40	18	1	524	6	山峰	-1.105728890430647926	-1223.7000000000000454747	80
101418	14:16:31	1	1	compatibletest	3	attributeB	41	23	0	976	5	街道	-1.1109998239539404796	-1217.658536585365936844	78.0487804878048763157
101418	14:16:31	1	1	compatibletest	3	targetAleft	42	18	1	700	6	严莉	-1.1097420941647204717	-1205.3333333333332575421	78.5714285714285693984
101418	14:16:31	1	1	compatibletest	3	attributeB	43	23	1	733	3	城市	-1.1095480642392958615	-1194.348837209302246265	79.0697674418604634639
101418	14:16:31	1	1	compatibletest	3	targetAleft	44	18	1	579	5	徐芳	-1.1054368597854549172	-1180.3636363636362602847	79.5454545454545467464
101418	14:16:31	1	1	compatibletest	3	targetAleft	45	18	1	461	5	徐芳	-1.0982378404284567353	-1164.3777777777777373558	80
101418	14:16:31	1	1	compatibletest	3	attributeB	46	23	1	881	6	电脑	-1.1019572129533736771	-1158.2173913043477568863	80.4347826086956558811
101418	14:16:31	1	1	compatibletest	3	attributeA	47	18	0	971	4	树木	-1.1073940711849379337	-1154.23404255319155709	78.7234042553191528668
101418	14:16:31	1	1	compatibletest	3	attributeB	48	23	1	319	3	城市	-1.0966068442782617165	-1136.8333333333332575421	79.1666666666666571928
101418	14:16:31	1	1	compatibletest	3	targetAleft	49	18	1	459	6	严莉	-1.0905220522852974163	-1123	79.5918367346938708806
101418	14:16:31	1	1	compatibletest	3	attributeB	50	23	0	611	5	街道	-1.0887218312333566406	-1112.7599999999999909051	78
101418	14:16:31	1	1	compatibletest	3	targetAleft	51	18	0	965	2	张莹莹	-1.0942549272472947841	-1109.8627450980391131452	76.4705882352941159752
101418	14:16:31	1	1	compatibletest	3	attributeA	52	18	1	1808	3	鸟类	-1.1059435488226088129	-1123.2884615384614335198	76.9230769230769340083
101418	14:16:31	1	1	compatibletest	3	attributeA	53	18	1	1750	1	动物	-1.1173458890445953084	-1135.1132075471698499314	77.3584905660377444292
101418	14:16:31	1	1	compatibletest	3	attributeA	54	18	1	527	2	植物	-1.1133091881544567858	-1123.8518518518519613281	77.7777777777777856727
101418	14:16:31	1	1	compatibletest	3	attributeB	55	23	0	941	1	建筑物	-1.1178957842516958898	-1120.5272727272727024683	76.3636363636363739715
101418	14:16:31	1	1	compatibletest	3	attributeB	56	23	1	347	4	工厂	-1.1094876932957513649	-1106.7142857142857792496	76.7857142857142918047
101418	14:16:31	1	1	compatibletest	3	attributeB	57	23	1	423	2	汽车	-1.1034778891942809143	-1094.7192982456140271097	77.1929824561403421512
101418	14:16:31	1	1	compatibletest	3	attributeB	58	23	1	395	4	工厂	-1.097045447592716938	-1082.6551724137930250436	77.5862068965517295283
101418	14:16:31	1	1	compatibletest	3	attributeB	59	23	1	504	5	街道	-1.0935492068505412444	-1072.8474576271187288512	77.9661016949152525513
101418	14:16:31	1	1	compatibletest	3	attributeB	60	23	1	382	6	电脑	-1.0873224100243414902	-1061.3333333333332575421	78.3333333333333285964
101418	14:16:31	1	1	compatibletest	3	attributeB	61	23	1	376	2	汽车	-1.0812251563954655698	-1050.098360655737678826	78.6885245901639365229
101418	14:16:31	1	1	compatibletest	3	attributeB	62	23	1	388	3	城市	-1.0756850020923054423	-1039.4193548387097507657	79.0322580645161281154
101418	14:16:31	1	1	compatibletest	3	attributeB	63	23	1	415	1	建筑物	-1.0710191972641622815	-1029.5079365079366198188	79.3650793650793673351
101418	14:16:31	1	1	compatibletest	3	attributeA	64	18	0	916	5	海洋	-1.0757052483341160709	-1027.734375	78.125
101418	14:16:31	1	1	compatibletest	3	attributeA	65	18	1	2134	4	树木	-1.0830992886943002773	-1044.7538461538460978772	78.4615384615384670042
101418	14:16:31	1	1	compatibletest	3	attributeB	66	23	1	1020	5	街道	-1.0887570458343662771	-1044.3787878787879890297	78.7878787878787818499
101418	14:16:31	1	1	compatibletest	3	attributeA	67	18	1	614	3	鸟类	-1.0882518937402139159	-1037.9552238805970318936	79.1044776119402968106
101418	14:16:31	1	1	compatibletest	3	attributeB	68	23	1	619	1	建筑物	-1.0879157585103460537	-1031.7941176470587834046	79.4117647058823479256
101418	14:16:31	1	1	compatibletest	3	attributeA	69	18	1	1005	6	山峰	-1.0932991702533514378	-1031.4057971014492522954	79.7101449275362341496
101418	14:16:31	1	1	compatibletest	3	targetAleft	70	18	1	479	3	胡文娟	-1.0903364839980331791	-1023.5142857142857337749	80
101418	14:16:31	1	1	compatibletest	3	attributeB	71	23	1	548	3	城市	-1.08885570947521515	-1016.8169014084506898143	80.2816901408450718236
101418	14:16:31	1	1	compatibletest	3	attributeB	72	23	1	384	6	电脑	-1.0841734507754685612	-1008.0277777777778283053	80.5555555555555571345
101418	14:16:31	1	1	practice_incompatibletest	4	targetAright	2	23	1	4511	1	赵晓倩	-1.0841734507754685612	-1008.0277777777778283053	80.5555555555555571345
101418	14:16:31	1	1	practice_incompatibletest	4	attributeB	3	23	1	9748	4	工厂	-1.0841734507754685612	-1008.0277777777778283053	80.5555555555555571345
101418	14:16:31	1	1	practice_incompatibletest	4	attributeB	4	23	0	2230	2	汽车	-1.0841734507754685612	-1008.0277777777778283053	80.5555555555555571345
101418	14:16:31	1	1	practice_incompatibletest	4	attributeA	5	18	1	1064	1	动物	-1.0841734507754685612	-1008.0277777777778283053	80.5555555555555571345
101418	14:16:31	1	1	practice_incompatibletest	4	targetAright	6	23	1	669	4	朱燕	-1.0841734507754685612	-1008.0277777777778283053	80.5555555555555571345
101418	14:16:31	1	1	practice_incompatibletest	4	attributeA	7	18	1	1387	2	植物	-1.0841734507754685612	-1008.0277777777778283053	80.5555555555555571345
101418	14:16:31	1	1	practice_incompatibletest	4	attributeA	8	18	1	2261	4	树木	-1.0841734507754685612	-1008.0277777777778283053	80.5555555555555571345
101418	14:16:31	1	1	practice_incompatibletest	4	targetAright	9	23	0	1909	2	张莹莹	-1.0841734507754685612	-1008.0277777777778283053	80.5555555555555571345
101418	14:16:31	1	1	practice_incompatibletest	4	attributeA	10	18	1	801	2	植物	-1.0841734507754685612	-1008.0277777777778283053	80.5555555555555571345
101418	14:16:31	1	1	practice_incompatibletest	4	attributeA	11	18	1	1332	3	鸟类	-1.0841734507754685612	-1008.0277777777778283053	80.5555555555555571345
101418	14:16:31	1	1	practice_incompatibletest	4	targetAright	12	23	0	2456	3	胡文娟	-1.0841734507754685612	-1008.0277777777778283053	80.5555555555555571345
101418	14:16:31	1	1	practice_incompatibletest	4	attributeB	13	23	0	506	3	城市	-1.0841734507754685612	-1008.0277777777778283053	80.5555555555555571345
101418	14:16:31	1	1	practice_incompatibletest	4	attributeA	14	18	1	316	5	海洋	-1.0841734507754685612	-1008.0277777777778283053	80.5555555555555571345
101418	14:16:31	1	1	practice_incompatibletest	4	targetAright	15	23	0	277	1	赵晓倩	-1.0841734507754685612	-1008.0277777777778283053	80.5555555555555571345
101418	14:16:31	1	1	practice_incompatibletest	4	attributeA	16	18	1	281	6	山峰	-1.0841734507754685612	-1008.0277777777778283053	80.5555555555555571345
101418	14:16:31	1	1	practice_incompatibletest	4	attributeA	17	18	1	256	1	动物	-1.0841734507754685612	-1008.0277777777778283053	80.5555555555555571345
101418	14:16:31	1	1	practice_incompatibletest	4	attributeB	18	23	1	276	4	工厂	-1.0841734507754685612	-1008.0277777777778283053	80.5555555555555571345
101418	14:16:31	1	1	practice_incompatibletest	4	attributeB	19	23	0	288	6	电脑	-1.0841734507754685612	-1008.0277777777778283053	80.5555555555555571345
101418	14:16:31	1	1	practice_incompatibletest	4	attributeA	20	18	0	263	5	海洋	-1.0841734507754685612	-1008.0277777777778283053	80.5555555555555571345
101418	14:16:31	1	1	practice_incompatibletest	4	attributeB	21	23	1	267	2	汽车	-1.0841734507754685612	-1008.0277777777778283053	80.5555555555555571345
101418	14:16:31	1	1	practice_incompatibletest	4	attributeA	22	18	0	233	1	动物	-1.0841734507754685612	-1008.0277777777778283053	80.5555555555555571345
101418	14:16:31	1	1	practice_incompatibletest	4	attributeB	23	23	1	149	5	街道	-1.0841734507754685612	-1008.0277777777778283053	80.5555555555555571345
101418	14:16:31	1	1	practice_incompatibletest	4	targetAright	24	23	0	221	5	徐芳	-1.0841734507754685612	-1008.0277777777778283053	80.5555555555555571345
101418	14:16:31	1	1	practice_incompatibletest	4	targetAright	25	23	1	187	6	严莉	-1.0841734507754685612	-1008.0277777777778283053	80.5555555555555571345
101418	14:16:31	1	1	incompatibletest	6	targetAright	1	23	0	296	4	朱燕	-0.8351205696796275557	-712.0277777777778283053	79.4520547945205493079
101418	14:16:31	1	1	incompatibletest	6	attributeA	2	18	1	160	2	植物	-0.9039876327615177232	-780.0277777777778283053	79.729729729729726273
101418	14:16:31	1	1	incompatibletest	6	attributeB	3	23	0	148	1	建筑物	-0.9331561222321155258	-806.6944444444444570763	78.6666666666666571928
101418	14:16:31	1	1	incompatibletest	6	attributeB	4	23	0	140	4	工厂	-0.9518048016715078274	-822.0277777777778283053	77.6315789473684247923
101418	14:16:31	1	1	incompatibletest	6	targetAright	5	23	0	170	2	张莹莹	-0.9595409820293518965	-825.22777777777787378	76.6233766233766289133
101418	14:16:31	1	1	incompatibletest	6	targetAright	6	23	1	194	4	朱燕	-0.9627039690238717862	-823.3611111111111995342	76.9230769230769340083
101418	14:16:31	1	1	incompatibletest	6	attributeA	7	18	0	198	4	树木	-0.9657701843118740026	-821.4563492063492731177	75.9493670886076017723
101418	14:16:31	1	1	incompatibletest	6	attributeB	8	23	0	147	2	汽车	-0.9749208323475154758	-826.4027777777778283053	75
101418	14:16:31	1	1	incompatibletest	6	attributeA	9	18	1	144	6	山峰	-0.9833337629849367989	-830.5833333333333712289	75.3086419753086460105
101418	14:16:31	1	1	incompatibletest	6	targetAright	10	23	0	184	6	严莉	-0.9873813129590336413	-829.9277777777778055679	74.3902439024390247369
101418	14:16:31	1	1	incompatibletest	6	targetAright	11	23	0	250	5	徐芳	-0.9860412361500179301	-823.3914141414142022768	73.4939759036144550919
101418	14:16:31	1	1	incompatibletest	6	attributeB	12	23	1	227	6	电脑	-0.9873564176487078514	-819.8611111111111995342	73.8095238095238102005
101418	14:16:31	1	1	incompatibletest	6	targetAright	13	23	1	206	1	赵晓倩	-0.9905815602790200014	-818.4893162393162810986	74.1176470588235360992
101418	14:16:31	1	1	incompatibletest	6	attributeB	14	23	1	259	3	城市	-0.9904384663777401343	-813.5277777777778283053	74.418604651162794994
101418	14:16:31	1	1	incompatibletest	6	targetAright	15	23	1	219	3	胡文娟	-0.9933100852023017957	-811.8944444444445025511	74.7126436781609157833
101418	14:16:31	1	1	incompatibletest	6	targetAright	16	23	1	220	2	张莹莹	-0.9962615694349220563	-810.4027777777778283053	75
101418	14:16:31	1	1	incompatibletest	6	attributeB	17	23	0	218	1	建筑物	-0.9994358351980978661	-809.2042483660131892975	74.1573033707865221231
101418	14:16:31	1	1	incompatibletest	6	attributeA	18	18	1	144	3	鸟类	-1.0064623009790263364	-812.25	74.4444444444444428655
101418	14:16:31	1	1	incompatibletest	6	attributeA	19	18	1	185	3	鸟类	-1.0111864124744804894	-812.8172514619883486375	74.7252747252747298035
101418	14:16:31	1	1	incompatibletest	6	attributeA	20	18	1	204	2	植物	-1.0149410286867828201	-812.3777777777778510426	75
101418	14:16:31	1	1	incompatibletest	6	targetAright	21	23	0	173	4	朱燕	-1.0200545764871908894	-813.4563492063492731177	74.1935483870967686926
101418	14:16:31	1	1	incompatibletest	6	targetAright	22	23	1	209	1	赵晓倩	-1.0235277358611716281	-812.8005050505050803622	74.4680851063829720715
101418	14:16:31	1	1	incompatibletest	6	attributeA	23	18	0	258	1	动物	-1.0250037784161534216	-810.0712560386473342078	73.6842105263157804984
101418	14:16:31	1	1	incompatibletest	6	targetAright	24	23	0	289	5	徐芳	-1.0253991661954735548	-806.2777777777778283053	72.9166666666666571928
101418	14:16:31	1	1	incompatibletest	6	attributeA	25	18	1	260	4	树木	-1.0271493065875638706	-803.947777777777787378	73.1958762886597895658
101418	14:16:31	1	1	incompatibletest	6	attributeA	26	18	1	228	6	山峰	-1.0302014387489777381	-803.0277777777778283053	73.4693877551020477767
101418	14:16:31	1	1	incompatibletest	6	targetAright	27	23	0	167	3	胡文娟	-1.0353946214323290764	-804.4351851851852188702	72.7272727272727337322
101418	14:16:31	1	1	incompatibletest	6	attributeA	28	18	1	195	5	海洋	-1.0395314056214677301	-804.7420634920636075549	73
101418	14:16:31	1	1	incompatibletest	6	attributeA	29	18	0	223	3	鸟类	-1.0427031540177651436	-804.0622605363985258009	72.2772277227722810267
101418	14:16:31	1	1	incompatibletest	6	attributeB	30	23	1	233	5	街道	-1.0455635168959558357	-803.0944444444444343389	72.5490196078431353044
101418	14:16:31	1	1	incompatibletest	6	attributeB	31	23	1	205	2	汽车	-1.0493060684901180935	-803.0922939068100276927	72.8155339805825292387
101418	14:16:31	1	1	incompatibletest	6	attributeA	32	18	1	289	5	海洋	-1.0504733337138683069	-800.4652777777778283053	73.0769230769230659917
101418	14:16:31	1	1	incompatibletest	6	attributeB	33	23	1	335	6	电脑	-1.0503447204033145024	-796.6035353535353351617	73.3333333333333285964
101418	14:16:31	1	1	incompatibletest	6	attributeA	34	18	1	272	6	山峰	-1.0522564660889779375	-794.8218954248366117099	73.5849056603773590268
101418	14:16:31	1	1	incompatibletest	6	attributeB	35	23	0	219	1	建筑物	-1.0557061233119870991	-794.6563492063492049056	72.8971962616822395375
101418	14:16:31	1	1	incompatibletest	6	targetAright	36	23	1	219	6	严莉	-1.0591332042943506497	-794.5	73.1481481481481523588
101418	14:16:31	1	1	incompatibletest	6	attributeB	37	23	0	275	5	街道	-1.0610564216435027785	-792.838588588588663697	72.4770642201834789375
101418	14:16:31	1	1	incompatibletest	6	targetAright	38	23	1	252	2	张莹莹	-1.0636302025998614074	-791.8698830409357469762	72.7272727272727337322
101418	14:16:31	1	1	incompatibletest	6	attributeA	39	18	0	257	2	植物	-1.0660938344844381742	-790.8226495726496523275	72.0720720720720748886
101418	14:16:31	1	1	incompatibletest	6	attributeA	40	18	0	205	4	树木	-1.0698405389545098121	-791.1277777777778510426	71.4285714285714306016
101418	14:16:31	1	1	incompatibletest	6	attributeB	41	23	1	215	4	工厂	-1.0733109436096976985	-791.1741192411924430417	71.6814159292035384397
101418	14:16:31	1	1	incompatibletest	6	attributeA	42	18	1	179	1	动物	-1.0775635564894197049	-792.075396825396865097	71.9298245614035067774
101418	14:16:31	1	1	incompatibletest	6	attributeA	43	18	1	213	4	树木	-1.0809995311297391218	-792.1440568475452437269	72.1739130434782651946
101418	14:16:31	1	1	incompatibletest	6	attributeB	44	23	0	224	3	城市	-1.0841636881451275354	-791.9595959595960721344	71.5517241379310320326
101418	14:16:31	1	1	incompatibletest	6	attributeA	45	18	1	268	6	山峰	-1.0863425951829033256	-790.8055555555556566105	71.7948717948717956006
101418	14:16:31	1	1	incompatibletest	6	attributeB	46	23	0	162	6	电脑	-1.0907620236843078576	-792.006038647343075354	71.1864406779661038627
101418	14:16:31	1	1	incompatibletest	6	attributeA	47	18	0	168	2	植物	-1.0949886679365388176	-793.0277777777778283053	70.5882352941176520744
101418	14:16:31	1	1	incompatibletest	6	attributeB	48	23	0	164	3	城市	-1.099225506912542949	-794.0902777777778283053	70
101418	14:16:31	1	1	incompatibletest	6	attributeB	49	23	0	141	2	汽车	-1.1038221059024886372	-795.5787981859410820107	69.4214876033057919358
101418	14:16:31	1	1	incompatibletest	6	targetAright	50	23	1	141	5	徐芳	-1.1083364077758341981	-797.0077777777778464952	69.672131147540980578
101418	14:16:31	1	1	incompatibletest	6	attributeB	51	23	1	213	1	建筑物	-1.1114599519050065712	-796.9689542483661170991	69.9186991869918728071
101418	14:16:31	1	1	incompatibletest	6	targetAright	52	23	1	157	3	胡文娟	-1.1155686172729204486	-798.0085470085471115453	70.161290322580654788
101418	14:16:31	1	1	incompatibletest	6	attributeA	53	18	0	173	1	动物	-1.1193384809979172179	-798.7070230607967005199	69.5999999999999943157
101418	14:16:31	1	1	incompatibletest	6	attributeA	54	18	1	152	3	鸟类	-1.1234150171587693468	-799.7685185185185900991	69.8412698412698347283
101418	14:16:31	1	1	incompatibletest	6	attributeA	55	18	1	146	5	海洋	-1.1275290364665364606	-800.9005050505051030996	70.078740157480311268
101418	14:16:31	1	1	incompatibletest	6	attributeA	56	18	0	253	1	动物	-1.1297668608425683878	-800.0813492063492731177	69.53125
101418	14:16:31	1	1	incompatibletest	6	attributeA	57	18	0	205	2	植物	-1.1328332956958486744	-800.1330409356726249825	68.9922480620155056386
101418	14:16:31	1	1	incompatibletest	6	targetAright	58	23	0	163	6	严莉	-1.1365509877064550182	-800.9070881226053870705	68.4615384615384670042
101418	14:16:31	1	1	incompatibletest	6	attributeA	59	18	1	169	3	鸟类	-1.140127921866335603	-801.553201506591449288	68.7022900763358848053
101418	14:16:31	1	1	incompatibletest	6	attributeA	60	18	0	166	5	海洋	-1.1437075889855756738	-802.22777777777787378	68.1818181818181727749
101418	14:16:31	1	1	incompatibletest	6	attributeB	61	23	0	184	4	工厂	-1.1469717110612860367	-802.5851548269581599016	67.6691729323308237554
101418	14:16:31	1	1	incompatibletest	6	attributeA	62	18	1	133	6	山峰	-1.1509463865330391563	-803.753584229390753535	67.9104477611940211546
101418	14:16:31	1	1	incompatibletest	6	attributeA	63	18	0	171	4	树木	-1.1543236608746327843	-804.2817460317460245278	67.4074074074074047758
101418	14:16:31	1	1	incompatibletest	6	attributeB	64	23	1	107	5	街道	-1.1585437215954235146	-805.7934027777778283053	67.647058823529420124
101418	14:16:31	1	1	incompatibletest	6	targetAright	65	23	0	159	1	赵晓倩	-1.1620006701681597772	-806.4585470085470433332	67.1532846715328446408
101418	14:16:31	1	1	incompatibletest	6	attributeA	66	18	1	135	5	海洋	-1.1657399622003541406	-807.4671717171718228201	67.3913043478260931352
101418	14:16:31	1	1	incompatibletest	6	targetAright	67	23	0	165	4	朱燕	-1.1690315288424697471	-807.9979270315091071097	66.9064748201438845854
101418	14:16:31	1	1	incompatibletest	6	attributeB	68	23	0	148	6	电脑	-1.1725118148439237498	-808.7630718954249005037	66.4285714285714306016
101418	14:16:31	1	1	incompatibletest	6	attributeA	69	18	0	185	4	树木	-1.1754639527822638989	-808.9698067632850779773	65.9574468085106389026
101418	14:16:31	1	1	incompatibletest	6	attributeB	70	23	0	178	2	汽车	-1.1784830218545574443	-809.2706349206349614178	65.492957746478879244
101418	14:16:31	1	1	incompatibletest	6	targetAright	71	23	1	128	5	徐芳	-1.1821005279391962883	-810.2672143974961045387	65.734265734265733272
101418	14:16:31	1	1	incompatibletest	6	targetAright	72	23	1	199	6	严莉	-1.1847827689498053871	-810.25	65.9722222222222143273
